{
  "resourceType": "Bundle",
  "type": "collection",
  "entry": [
    {
      "resource": {
        "resourceType": "Patient",
        "id": "pat-123",
        "name": [
          {
            "use": "official",
            "family": "Rheum",
            "given": [
              "Rae"
            ]
          }
        ],
        "gender": "female",
        "birthDate": "1975-03-14"
      }
    },
    {
      "resource": {
        "resourceType": "Condition",
        "id": "cond-ra-1",
        "clinicalStatus": {
          "coding": [
            {
              "system": "http://terminology.hl7.org/CodeSystem/condition-clinical",
              "code": "active"
            }
          ]
        },
        "verificationStatus": {
          "coding": [
            {
              "system": "http://terminology.hl7.org/CodeSystem/condition-ver-status",
              "code": "confirmed"
            }
          ]
        },
        "category": [
          {
            "coding": [
              {
                "system": "http://terminology.hl7.org/CodeSystem/condition-category",
                "code": "problem-list-item"
              }
            ]
          }
        ],
        "code": {
          "coding": [
            {
              "system": "http://snomed.info/sct",
              "code": "69896004",
              "display": "Rheumatoid arthritis"
            },
            {
              "system": "http://hl7.org/fhir/sid/icd-10",
              "code": "M06.9",
              "display": "Rheumatoid arthritis, unspecified"
            }
          ],
          "text": "Rheumatoid arthritis"
        },
        "subject": {
          "reference": "Patient/pat-123"
        },
        "onsetDateTime": "2024-11-01"
      }
    },
    {
      "resource": {
        "resourceType": "Observation",
        "id": "obs-das28-1",
        "status": "final",
        "category": [
          {
            "coding": [
              {
                "system": "http://terminology.hl7.org/CodeSystem/observation-category",
                "code": "activity"
              }
            ]
          }
        ],
        "code": {
          "coding": [
            {
              "system": "http://loinc.org",
              "code": "SIM-DAS28",
              "display": "DAS28 disease activity score"
            }
          ],
          "text": "DAS28 disease activity score"
        },
        "subject": {
          "reference": "Patient/pat-123"
        },
        "effectiveDateTime": "2024-11-01",
        "valueQuantity": {
          "value": 5.9,
          "unit": "score"
        },
        "interpretation": [
          {
            "coding": [
              {
                "system": "http://terminology.hl7.org/CodeSystem/v3-ObservationInterpretation",
                "code": "H",
                "display": "High (red)"
              }
            ],
            "text": "High (red)"
          }
        ]
      }
    },
    {
      "resource": {
        "resourceType": "Observation",
        "id": "obs-das28-2",
        "status": "final",
        "category": [
          {
            "coding": [
              {
                "system": "http://terminology.hl7.org/CodeSystem/observation-category",
                "code": "activity"
              }
            ]
          }
        ],
        "code": {
          "coding": [
            {
              "system": "http://loinc.org",
              "code": "SIM-DAS28",
              "display": "DAS28 disease activity score"
            }
          ],
          "text": "DAS28 disease activity score"
        },
        "subject": {
          "reference": "Patient/pat-123"
        },
        "effectiveDateTime": "2024-12-01",
        "valueQuantity": {
          "value": 5.6,
          "unit": "score"
        },
        "interpretation": [
          {
            "coding": [
              {
                "system": "http://terminology.hl7.org/CodeSystem/v3-ObservationInterpretation",
                "code": "H",
                "display": "High (red)"
              }
            ],
            "text": "High (red)"
          }
        ]
      }
    },
    {
      "resource": {
        "resourceType": "Observation",
        "id": "obs-das28-3",
        "status": "final",
        "category": [
          {
            "coding": [
              {
                "system": "http://terminology.hl7.org/CodeSystem/observation-category",
                "code": "activity"
              }
            ]
          }
        ],
        "code": {
          "coding": [
            {
              "system": "http://loinc.org",
              "code": "SIM-DAS28",
              "display": "DAS28 disease activity score"
            }
          ],
          "text": "DAS28 disease activity score"
        },
        "subject": {
          "reference": "Patient/pat-123"
        },
        "effectiveDateTime": "2025-01-01",
        "valueQuantity": {
          "value": 5.4,
          "unit": "score"
        },
        "interpretation": [
          {
            "coding": [
              {
                "system": "http://terminology.hl7.org/CodeSystem/v3-ObservationInterpretation",
                "code": "H",
                "display": "High (red)"
              }
            ],
            "text": "High (red)"
          }
        ]
      }
    },
    {
      "resource": {
        "resourceType": "Observation",
        "id": "obs-das28-4",
        "status": "final",
        "category": [
          {
            "coding": [
              {
                "system": "http://terminology.hl7.org/CodeSystem/observation-category",
                "code": "activity"
              }
            ]
          }
        ],
        "code": {
          "coding": [
            {
              "system": "http://loinc.org",
              "code": "SIM-DAS28",
              "display": "DAS28 disease activity score"
            }
          ],
          "text": "DAS28 disease activity score"
        },
        "subject": {
          "reference": "Patient/pat-123"
        },
        "effectiveDateTime": "2025-02-01",
        "valueQuantity": {
          "value": 5.2,
          "unit": "score"
        },
        "interpretation": [
          {
            "coding": [
              {
                "system": "http://terminology.hl7.org/CodeSystem/v3-ObservationInterpretation",
                "code": "H",
                "display": "High (red)"
              }
            ],
            "text": "High (red)"
          }
        ]
      }
    },
    {
      "resource": {
        "resourceType": "Observation",
        "id": "obs-das28-5",
        "status": "final",
        "category": [
          {
            "coding": [
              {
                "system": "http://terminology.hl7.org/CodeSystem/observation-category",
                "code": "activity"
              }
            ]
          }
        ],
        "code": {
          "coding": [
            {
              "system": "http://loinc.org",
              "code": "SIM-DAS28",
              "display": "DAS28 disease activity score"
            }
          ],
          "text": "DAS28 disease activity score"
        },
        "subject": {
          "reference": "Patient/pat-123"
        },
        "effectiveDateTime": "2025-03-01",
        "valueQuantity": {
          "value": 4.8,
          "unit": "score"
        },
        "interpretation": [
          {
            "coding": [
              {
                "system": "http://terminology.hl7.org/CodeSystem/v3-ObservationInterpretation",
                "code": "N",
                "display": "Moderate (yellow)"
              }
            ],
            "text": "Moderate (yellow)"
          }
        ]
      }
    },
    {
      "resource": {
        "resourceType": "Observation",
        "id": "obs-das28-6",
        "status": "final",
        "category": [
          {
            "coding": [
              {
                "system": "http://terminology.hl7.org/CodeSystem/observation-category",
                "code": "activity"
              }
            ]
          }
        ],
        "code": {
          "coding": [
            {
              "system": "http://loinc.org",
              "code": "SIM-DAS28",
              "display": "DAS28 disease activity score"
            }
          ],
          "text": "DAS28 disease activity score"
        },
        "subject": {
          "reference": "Patient/pat-123"
        },
        "effectiveDateTime": "2025-04-01",
        "valueQuantity": {
          "value": 4.4,
          "unit": "score"
        },
        "interpretation": [
          {
            "coding": [
              {
                "system": "http://terminology.hl7.org/CodeSystem/v3-ObservationInterpretation",
                "code": "N",
                "display": "Moderate (yellow)"
              }
            ],
            "text": "Moderate (yellow)"
          }
        ]
      }
    },
    {
      "resource": {
        "resourceType": "Observation",
        "id": "obs-das28-7",
        "status": "final",
        "category": [
          {
            "coding": [
              {
                "system": "http://terminology.hl7.org/CodeSystem/observation-category",
                "code": "activity"
              }
            ]
          }
        ],
        "code": {
          "coding": [
            {
              "system": "http://loinc.org",
              "code": "SIM-DAS28",
              "display": "DAS28 disease activity score"
            }
          ],
          "text": "DAS28 disease activity score"
        },
        "subject": {
          "reference": "Patient/pat-123"
        },
        "effectiveDateTime": "2025-05-01",
        "valueQuantity": {
          "value": 4.0,
          "unit": "score"
        },
        "interpretation": [
          {
            "coding": [
              {
                "system": "http://terminology.hl7.org/CodeSystem/v3-ObservationInterpretation",
                "code": "N",
                "display": "Moderate (yellow)"
              }
            ],
            "text": "Moderate (yellow)"
          }
        ]
      }
    },
    {
      "resource": {
        "resourceType": "Observation",
        "id": "obs-das28-8",
        "status": "final",
        "category": [
          {
            "coding": [
              {
                "system": "http://terminology.hl7.org/CodeSystem/observation-category",
                "code": "activity"
              }
            ]
          }
        ],
        "code": {
          "coding": [
            {
              "system": "http://loinc.org",
              "code": "SIM-DAS28",
              "display": "DAS28 disease activity score"
            }
          ],
          "text": "DAS28 disease activity score"
        },
        "subject": {
          "reference": "Patient/pat-123"
        },
        "effectiveDateTime": "2025-06-01",
        "valueQuantity": {
          "value": 3.6,
          "unit": "score"
        },
        "interpretation": [
          {
            "coding": [
              {
                "system": "http://terminology.hl7.org/CodeSystem/v3-ObservationInterpretation",
                "code": "N",
                "display": "Moderate (yellow)"
              }
            ],
            "text": "Moderate (yellow)"
          }
        ]
      }
    },
    {
      "resource": {
        "resourceType": "Observation",
        "id": "obs-das28-9",
        "status": "final",
        "category": [
          {
            "coding": [
              {
                "system": "http://terminology.hl7.org/CodeSystem/observation-category",
                "code": "activity"
              }
            ]
          }
        ],
        "code": {
          "coding": [
            {
              "system": "http://loinc.org",
              "code": "SIM-DAS28",
              "display": "DAS28 disease activity score"
            }
          ],
          "text": "DAS28 disease activity score"
        },
        "subject": {
          "reference": "Patient/pat-123"
        },
        "effectiveDateTime": "2025-07-01",
        "valueQuantity": {
          "value": 3.2,
          "unit": "score"
        },
        "interpretation": [
          {
            "coding": [
              {
                "system": "http://terminology.hl7.org/CodeSystem/v3-ObservationInterpretation",
                "code": "N",
                "display": "Moderate (yellow)"
              }
            ],
            "text": "Moderate (yellow)"
          }
        ]
      }
    },
    {
      "resource": {
        "resourceType": "Observation",
        "id": "obs-das28-10",
        "status": "final",
        "category": [
          {
            "coding": [
              {
                "system": "http://terminology.hl7.org/CodeSystem/observation-category",
                "code": "activity"
              }
            ]
          }
        ],
        "code": {
          "coding": [
            {
              "system": "http://loinc.org",
              "code": "SIM-DAS28",
              "display": "DAS28 disease activity score"
            }
          ],
          "text": "DAS28 disease activity score"
        },
        "subject": {
          "reference": "Patient/pat-123"
        },
        "effectiveDateTime": "2025-08-01",
        "valueQuantity": {
          "value": 2.9,
          "unit": "score"
        },
        "interpretation": [
          {
            "coding": [
              {
                "system": "http://terminology.hl7.org/CodeSystem/v3-ObservationInterpretation",
                "code": "L",
                "display": "Low (green)"
              }
            ],
            "text": "Low (green)"
          }
        ]
      }
    },
    {
      "resource": {
        "resourceType": "Observation",
        "id": "obs-das28-11",
        "status": "final",
        "category": [
          {
            "coding": [
              {
                "system": "http://terminology.hl7.org/CodeSystem/observation-category",
                "code": "activity"
              }
            ]
          }
        ],
        "code": {
          "coding": [
            {
              "system": "http://loinc.org",
              "code": "SIM-DAS28",
              "display": "DAS28 disease activity score"
            }
          ],
          "text": "DAS28 disease activity score"
        },
        "subject": {
          "reference": "Patient/pat-123"
        },
        "effectiveDateTime": "2025-09-01",
        "valueQuantity": {
          "value": 2.6,
          "unit": "score"
        },
        "interpretation": [
          {
            "coding": [
              {
                "system": "http://terminology.hl7.org/CodeSystem/v3-ObservationInterpretation",
                "code": "L",
                "display": "Low (green)"
              }
            ],
            "text": "Low (green)"
          }
        ]
      }
    },
    {
      "resource": {
        "resourceType": "Observation",
        "id": "obs-das28-12",
        "status": "final",
        "category": [
          {
            "coding": [
              {
                "system": "http://terminology.hl7.org/CodeSystem/observation-category",
                "code": "activity"
              }
            ]
          }
        ],
        "code": {
          "coding": [
            {
              "system": "http://loinc.org",
              "code": "SIM-DAS28",
              "display": "DAS28 disease activity score"
            }
          ],
          "text": "DAS28 disease activity score"
        },
        "subject": {
          "reference": "Patient/pat-123"
        },
        "effectiveDateTime": "2025-10-01",
        "valueQuantity": {
          "value": 2.4,
          "unit": "score"
        },
        "interpretation": [
          {
            "coding": [
              {
                "system": "http://terminology.hl7.org/CodeSystem/v3-ObservationInterpretation",
                "code": "L",
                "display": "Low (green)"
              }
            ],
            "text": "Low (green)"
          }
        ]
      }
    },
    {
      "resource": {
        "resourceType": "Medication",
        "id": "med-1",
        "code": {
          "coding": [
            {
              "system": "http://www.nlm.nih.gov/research/umls/rxnorm",
              "code": "sim-rxnorm-131",
              "display": "Naproxen"
            },
            {
              "system": "http://hl7.org/fhir/sid/ndc",
              "code": "sim-ndc-0001",
              "display": "Naproxen"
            }
          ],
          "text": "Naproxen"
        }
      }
    },
    {
      "resource": {
        "resourceType": "Medication",
        "id": "med-2",
        "code": {
          "coding": [
            {
              "system": "http://www.nlm.nih.gov/research/umls/rxnorm",
              "code": "sim-rxnorm-469",
              "display": "Methotrexate"
            },
            {
              "system": "http://hl7.org/fhir/sid/ndc",
              "code": "sim-ndc-0002",
              "display": "Methotrexate"
            }
          ],
          "text": "Methotrexate"
        }
      }
    },
    {
      "resource": {
        "resourceType": "Medication",
        "id": "med-3",
        "code": {
          "coding": [
            {
              "system": "http://www.nlm.nih.gov/research/umls/rxnorm",
              "code": "sim-rxnorm-838",
              "display": "Folic acid"
            },
            {
              "system": "http://hl7.org/fhir/sid/ndc",
              "code": "sim-ndc-0003",
              "display": "Folic acid"
            }
          ],
          "text": "Folic acid"
        }
      }
    },
    {
      "resource": {
        "resourceType": "Medication",
        "id": "med-4",
        "code": {
          "coding": [
            {
              "system": "http://www.nlm.nih.gov/research/umls/rxnorm",
              "code": "sim-rxnorm-199",
              "display": "Adalimumab (Humira)"
            },
            {
              "system": "http://hl7.org/fhir/sid/ndc",
              "code": "sim-ndc-0004",
              "display": "Adalimumab (Humira)"
            }
          ],
          "text": "Adalimumab (Humira)"
        }
      }
    },
    {
      "resource": {
        "resourceType": "Medication",
        "id": "med-5",
        "code": {
          "coding": [
            {
              "system": "http://www.nlm.nih.gov/research/umls/rxnorm",
              "code": "sim-rxnorm-200",
              "display": "Adalimumab-adbm (Cyltezo)"
            },
            {
              "system": "http://hl7.org/fhir/sid/ndc",
              "code": "sim-ndc-0005",
              "display": "Adalimumab-adbm (Cyltezo)"
            }
          ],
          "text": "Adalimumab-adbm (Cyltezo)"
        }
      }
    },
    {
      "resource": {
        "resourceType": "MedicationStatement",
        "id": "medstmt-1",
        "status": "completed",
        "medicationReference": {
          "reference": "Medication/med-1"
        },
        "subject": {
          "reference": "Patient/pat-123"
        },
        "effectivePeriod": {
          "start": "2024-11-01",
          "end": "2025-01-01"
        },
        "dosage": [
          {
            "text": "500 mg Oral BID",
            "doseAndRate": [
              {
                "doseQuantity": {
                  "value": 500.0,
                  "unit": "mg"
                }
              }
            ],
            "route": {
              "coding": [
                {
                  "system": "http://snomed.info/sct",
                  "code": "26643006",
                  "display": "Oral"
                }
              ]
            },
            "timing": {
              "code": {
                "text": "BID"
              }
            }
          }
        ]
      }
    },
    {
      "resource": {
        "resourceType": "MedicationStatement",
        "id": "medstmt-2",
        "status": "completed",
        "medicationReference": {
          "reference": "Medication/med-2"
        },
        "subject": {
          "reference": "Patient/pat-123"
        },
        "effectivePeriod": {
          "start": "2025-01-01",
          "end": "2025-06-01"
        },
        "dosage": [
          {
            "text": "15 mg Oral Weekly",
            "doseAndRate": [
              {
                "doseQuantity": {
                  "value": 15.0,
                  "unit": "mg"
                }
              }
            ],
            "route": {
              "coding": [
                {
                  "system": "http://snomed.info/sct",
                  "code": "26643006",
                  "display": "Oral"
                }
              ]
            },
            "timing": {
              "code": {
                "text": "Weekly"
              }
            }
          }
        ]
      }
    },
    {
      "resource": {
        "resourceType": "MedicationStatement",
        "id": "medstmt-3",
        "status": "completed",
        "medicationReference": {
          "reference": "Medication/med-3"
        },
        "subject": {
          "reference": "Patient/pat-123"
        },
        "effectivePeriod": {
          "start": "2025-02-01",
          "end": "2025-06-01"
        },
        "dosage": [
          {
            "text": "1 mg Oral OD",
            "doseAndRate": [
              {
                "doseQuantity": {
                  "value": 1.0,
                  "unit": "mg"
                }
              }
            ],
            "route": {
              "coding": [
                {
                  "system": "http://snomed.info/sct",
                  "code": "26643006",
                  "display": "Oral"
                }
              ]
            },
            "timing": {
              "code": {
                "text": "OD"
              }
            }
          }
        ]
      }
    },
    {
      "resource": {
        "resourceType": "MedicationStatement",
        "id": "medstmt-4",
        "status": "completed",
        "medicationReference": {
          "reference": "Medication/med-4"
        },
        "subject": {
          "reference": "Patient/pat-123"
        },
        "effectivePeriod": {
          "start": "2025-06-01",
          "end": "2025-08-01"
        },
        "dosage": [
          {
            "text": "40 mg SC Q2W",
            "doseAndRate": [
              {
                "doseQuantity": {
                  "value": 40.0,
                  "unit": "mg"
                }
              }
            ],
            "route": {
              "coding": [
                {
                  "system": "http://snomed.info/sct",
                  "code": "26643006",
                  "display": "SC"
                }
              ]
            },
            "timing": {
              "code": {
                "text": "Q2W"
              }
            }
          }
        ]
      }
    },
    {
      "resource": {
        "resourceType": "MedicationStatement",
        "id": "medstmt-5",
        "status": "completed",
        "medicationReference": {
          "reference": "Medication/med-5"
        },
        "subject": {
          "reference": "Patient/pat-123"
        },
        "effectivePeriod": {
          "start": "2025-08-01",
          "end": "2025-10-01"
        },
        "dosage": [
          {
            "text": "40 mg SC Q2W",
            "doseAndRate": [
              {
                "doseQuantity": {
                  "value": 40.0,
                  "unit": "mg"
                }
              }
            ],
            "route": {
              "coding": [
                {
                  "system": "http://snomed.info/sct",
                  "code": "26643006",
                  "display": "SC"
                }
              ]
            },
            "timing": {
              "code": {
                "text": "Q2W"
              }
            }
          }
        ]
      }
    }
  ]
}